T100 WAVELENGTH,T100 POWER,BRISTOL WAVELENGTH,BRISTOL POWER,POWER METER POWER
1561.3,-0.03,1561.7617,-4.010,-3.55644
1561.31,-0.03,1561.7686,-3.960,-3.55654
1561.32,-0.03,1561.7796,-3.890,-3.55747
1561.33,-0.03,1561.7911,-4.020,-3.55637
1561.34,-0.03,1561.7976,-3.980,-3.5563
1561.35,-0.03,1561.8084,-3.840,-3.55714
1561.36,-0.03,1561.8200,-4.060,-3.55618
1561.37,-0.03,1561.8266,-3.940,-3.55621
1561.38,-0.03,1561.8378,-3.890,-3.55717
1561.39,-0.03,1561.8500,-4.000,-3.55624
1561.4,-0.02,1561.8571,-3.980,-3.55614
1561.41,-0.03,1561.8684,-3.890,-3.55678
1561.42,-0.03,1561.8804,-4.210,-3.55585
1561.43,-0.03,1561.8873,-3.950,-3.55608
1561.44,-0.03,1561.8984,-3.940,-3.55669
1561.45,-0.03,1561.9103,-4.160,-3.55587
1561.46,-0.03,1561.9176,-3.940,-3.55578
1561.47,-0.03,1561.9285,-3.970,-3.55665
1561.48,-0.03,1561.9400,-4.230,-3.55587
1561.49,-0.03,1561.9468,-3.940,-3.5558
1561.5,-0.03,1561.9576,-3.890,-3.55672
1561.51,-0.03,1561.9691,-4.210,-3.55568
1561.52,-0.03,1561.9762,-3.990,-3.55557
1561.53,-0.03,1561.9875,-3.900,-3.55636
1561.54,-0.03,1561.9992,-4.240,-3.55545
1561.55,-0.03,1562.0064,-3.930,-3.55556
1561.56,-0.03,1562.0172,-3.940,-3.5561
1561.57,-0.03,1562.0288,-4.020,-3.55505
1561.58,-0.03,1562.0354,-3.960,-3.55528
1561.59,-0.03,1562.0464,-3.890,-3.55596
1561.6,-0.03,1562.0578,-4.240,-3.55515
1561.61,-0.03,1562.0681,-3.900,-3.55427
1561.62,-0.03,1562.0757,-3.890,-3.55619
1561.63,-0.03,1562.0863,-4.070,-3.55506
1561.64,-0.03,1562.0967,-3.920,-3.55403
1561.65,-0.03,1562.1039,-3.840,-3.55605
1561.66,-0.03,1562.1155,-3.990,-3.55511
1561.67,-0.03,1562.1261,-3.920,-3.55409
1561.68,-0.03,1562.1330,-3.890,-3.55573
1561.69,-0.03,1562.1447,-4.010,-3.55484
1561.7,-0.03,1562.1555,-3.920,-3.55406
1561.71,-0.03,1562.1626,-3.910,-3.55575
1561.72,-0.03,1562.1747,-4.190,-3.55468
1561.73,-0.03,1562.1856,-3.900,-3.55404
1561.74,-0.03,1562.1927,-3.870,-3.55591
1561.75,-0.03,1562.2049,-4.160,-3.55488
1561.76,-0.03,1562.2156,-3.900,-3.55399
1561.77,-0.03,1562.2229,-3.890,-3.55558
1561.78,-0.03,1562.2350,-3.990,-3.55468
1561.79,-0.03,1562.2464,-3.900,-3.55393
1561.8,-0.03,1562.2541,-3.900,-3.55544
1561.81,-0.03,1562.2662,-4.010,-3.55434
1561.82,-0.03,1562.2776,-3.910,-3.55346
1561.83,-0.03,1562.2848,-3.930,-3.55535
1561.84,-0.03,1562.2967,-4.020,-3.55416
1561.85,-0.03,1562.3078,-3.930,-3.55346
1561.86,-0.03,1562.3150,-3.960,-3.55523
1561.87,-0.03,1562.3269,-3.960,-3.5541
1561.88,-0.03,1562.3381,-3.910,-3.553
1561.89,-0.03,1562.3456,-3.970,-3.555
1561.9,-0.03,1562.3571,-3.980,-3.55392
1561.91,-0.03,1562.3679,-3.940,-3.55267
1561.92,-0.03,1562.3750,-3.970,-3.55467
1561.93,-0.03,1562.3865,-3.960,-3.55342
1561.94,-0.03,1562.3971,-3.910,-3.5526
1561.95,-0.03,1562.4045,-3.940,-3.55424
1561.96,-0.03,1562.4163,-3.960,-3.55342
1561.97,-0.03,1562.4269,-3.930,-3.55254
1561.98,-0.03,1562.4339,-3.950,-3.5542
1561.99,-0.03,1562.4454,-3.930,-3.55329
1562,-0.02,1562.4560,-3.960,-3.55217
1562.01,-0.03,1562.4630,-3.920,-3.55405
1562.02,-0.03,1562.4747,-3.980,-3.55299
1562.03,-0.03,1562.4855,-3.910,-3.55197
1562.04,-0.03,1562.4926,-3.920,-3.55378
1562.05,-0.02,1562.5045,-3.950,-3.55285
1562.06,-0.03,1562.5155,-3.860,-3.55156
1562.07,-0.03,1562.5265,-4.030,-3.55243
1562.08,-0.03,1562.5353,-3.940,-3.55247
1562.09,-0.03,1562.5462,-3.890,-3.55147
1562.1,-0.03,1562.5570,-4.230,-3.55243
1562.11,-0.02,1562.5654,-3.930,-3.55231
1562.12,-0.03,1562.5763,-3.920,-3.55147
1562.13,-0.03,1562.5870,-4.180,-3.55228
1562.14,-0.03,1562.5953,-3.930,-3.55214
1562.15,-0.03,1562.6062,-3.890,-3.55128
1562.16,-0.03,1562.6170,-4.020,-3.55197
1562.17,-0.03,1562.6250,-3.900,-3.55217
1562.18,-0.03,1562.6359,-3.940,-3.55099
1562.19,-0.03,1562.6466,-3.990,-3.55192
1562.2,-0.03,1562.6549,-3.920,-3.55193
1562.21,-0.03,1562.6659,-3.950,-3.55085
1562.22,-0.03,1562.6768,-4.000,-3.55181
1562.23,-0.03,1562.6854,-3.940,-3.55167
1562.24,-0.03,1562.6960,-3.900,-3.55091
1562.25,-0.03,1562.7065,-4.000,-3.55159
1562.26,-0.03,1562.7149,-3.890,-3.55151
1562.27,-0.03,1562.7258,-3.930,-3.55094
1562.28,-0.03,1562.7367,-4.040,-3.55163
1562.29,-0.03,1562.7447,-3.820,-3.55152
1562.3,-0.03,1562.7550,-3.930,-3.55076
1562.31,-0.03,1562.7654,-3.990,-3.55151
1562.32,-0.03,1562.7735,-3.870,-3.55133
1562.33,-0.03,1562.7843,-3.920,-3.55043
1562.34,-0.03,1562.7953,-3.970,-3.55156
1562.35,-0.03,1562.8034,-3.920,-3.55154
1562.36,-0.03,1562.8145,-3.950,-3.55062
1562.37,-0.03,1562.8255,-3.980,-3.55128
1562.38,-0.03,1562.8331,-3.890,-3.55127
1562.39,-0.03,1562.8441,-3.910,-3.55042
1562.4,-0.03,1562.8551,-3.930,-3.55122
1562.41,-0.03,1562.8630,-3.950,-3.55095
1562.42,-0.03,1562.8737,-3.930,-3.5502
1562.43,-0.03,1562.8846,-3.980,-3.55116
1562.44,-0.03,1562.8923,-3.910,-3.55088
1562.45,-0.03,1562.9032,-3.930,-3.55012
1562.46,-0.03,1562.9143,-3.980,-3.55084
1562.47,-0.03,1562.9226,-3.910,-3.55076
1562.48,-0.03,1562.9341,-3.900,-3.54986
1562.49,-0.03,1562.9452,-4.010,-3.55067
1562.5,-0.03,1562.9563,-3.910,-3.55177
1562.51,-0.03,1562.9645,-3.920,-3.54814
1562.52,-0.03,1562.9757,-3.950,-3.54888
1562.53,-0.03,1562.9869,-3.930,-3.54959
1562.54,-0.03,1562.9949,-3.910,-3.54794
1562.55,-0.03,1563.0057,-3.940,-3.54872
1562.56,-0.03,1563.0165,-3.890,-3.54965
1562.57,-0.03,1563.0241,-3.960,-3.54775
1562.58,-0.03,1563.0349,-3.920,-3.54872
1562.59,-0.03,1563.0459,-3.880,-3.54947
1562.6,-0.03,1563.0535,-3.960,-3.54759
1562.61,-0.03,1563.0645,-3.920,-3.54826
1562.62,-0.03,1563.0759,-3.890,-3.54938
1562.63,-0.02,1563.0839,-3.950,-3.54758
1562.64,-0.03,1563.0944,-3.910,-3.54855
1562.65,-0.03,1563.1055,-3.890,-3.54929
1562.66,-0.03,1563.1135,-3.980,-3.54732
1562.67,-0.03,1563.1243,-3.930,-3.54845
1562.68,-0.03,1563.1357,-3.920,-3.54918
1562.69,-0.03,1563.1436,-4.000,-3.54692
1562.7,-0.03,1563.1540,-3.950,-3.54814
1562.71,-0.03,1563.1655,-3.890,-3.54896
1562.72,-0.03,1563.1733,-3.930,-3.54712
1562.73,-0.03,1563.1837,-3.910,-3.54818
1562.74,-0.03,1563.1949,-3.920,-3.54879
1562.75,-0.03,1563.2033,-3.990,-3.54727
1562.76,-0.03,1563.2138,-3.920,-3.54798
1562.77,-0.03,1563.2250,-3.870,-3.54882
1562.78,-0.03,1563.2332,-4.030,-3.54708
1562.79,-0.03,1563.2437,-3.920,-3.54784
1562.8,-0.03,1563.2547,-3.940,-3.54865
1562.81,-0.03,1563.2628,-4.060,-3.54704
1562.82,-0.03,1563.2733,-3.920,-3.54778
1562.83,-0.03,1563.2842,-3.940,-3.54874
1562.84,-0.03,1563.2920,-4.030,-3.54678
1562.85,-0.03,1563.3028,-3.920,-3.54763
1562.86,-0.03,1563.3144,-3.950,-3.54827
1562.87,-0.03,1563.3231,-4.210,-3.5468
1562.88,-0.02,1563.3344,-3.870,-3.54749
1562.89,-0.03,1563.3460,-3.910,-3.54846
1562.9,-0.03,1563.3542,-4.000,-3.54652
1562.91,-0.03,1563.3655,-3.910,-3.54736
1562.92,-0.03,1563.3774,-3.910,-3.54812
1562.93,-0.03,1563.3859,-4.000,-3.54643
1562.94,-0.03,1563.3968,-3.910,-3.54732
1562.95,-0.03,1563.4083,-3.930,-3.54797
1562.96,-0.03,1563.4201,-3.950,-3.54707
1562.97,-0.03,1563.4273,-3.880,-3.54716
1562.98,-0.03,1563.4384,-3.960,-3.54791
1562.99,-0.03,1563.4502,-3.870,-3.54702
1563,-0.03,1563.4570,-3.910,-3.54688
1563.01,-0.03,1563.4684,-3.960,-3.54781
1563.02,-0.03,1563.4801,-3.970,-3.54711
1563.03,-0.03,1563.4870,-3.930,-3.54695
1563.04,-0.03,1563.4980,-4.000,-3.54785
1563.05,-0.03,1563.5097,-3.920,-3.54696
1563.06,-0.03,1563.5166,-3.860,-3.54702
1563.07,-0.03,1563.5274,-4.020,-3.54791
1563.08,-0.03,1563.5391,-3.920,-3.54675
1563.09,-0.03,1563.5455,-3.880,-3.5468
1563.1,-0.03,1563.5561,-3.950,-3.54764
1563.11,-0.03,1563.5677,-3.920,-3.54689
1563.12,-0.03,1563.5749,-3.880,-3.54672
1563.13,-0.03,1563.5858,-4.010,-3.54777
1563.14,-0.03,1563.5975,-3.950,-3.54667
1563.15,-0.03,1563.6047,-3.860,-3.54652
1563.16,-0.03,1563.6158,-4.020,-3.54772
1563.17,-0.03,1563.6271,-3.870,-3.54667
1563.18,-0.03,1563.6345,-3.910,-3.54656
1563.19,-0.03,1563.6454,-4.000,-3.54759
1563.2,-0.03,1563.6569,-3.890,-3.54664
1563.21,-0.03,1563.6637,-3.830,-3.54671
1563.22,-0.03,1563.6746,-4.030,-3.54742
1563.23,-0.03,1563.6859,-3.920,-3.54653
1563.24,-0.03,1563.6926,-3.910,-3.54645
1563.25,-0.03,1563.7032,-3.920,-3.5473
1563.26,-0.03,1563.7146,-3.920,-3.54647
1563.27,-0.03,1563.7216,-3.910,-3.54636
1563.28,-0.03,1563.7329,-3.970,-3.54726
1563.29,-0.03,1563.7448,-3.920,-3.54623
1563.3,-0.03,1563.7519,-3.880,-3.54615
1563.31,-0.03,1563.7631,-3.950,-3.54683
1563.32,-0.03,1563.7747,-3.920,-3.54599
1563.33,-0.03,1563.7818,-3.910,-3.5459
1563.34,-0.03,1563.7927,-3.940,-3.54664
1563.35,-0.03,1563.8045,-3.910,-3.54563
1563.36,-0.03,1563.8117,-3.890,-3.54564
1563.37,-0.03,1563.8226,-4.040,-3.54661
1563.38,-0.03,1563.8344,-3.890,-3.54562
1563.39,-0.03,1563.8413,-3.910,-3.54556
1563.4,-0.03,1563.8526,-3.970,-3.54654
1563.41,-0.03,1563.8645,-3.910,-3.54557
1563.42,-0.03,1563.8757,-3.930,-3.5445
1563.43,-0.03,1563.8829,-4.210,-3.54612
1563.44,-0.03,1563.8944,-3.910,-3.54551
1563.45,-0.03,1563.9055,-3.940,-3.54453
1563.46,-0.03,1563.9126,-4.250,-3.54627
1563.47,-0.03,1563.9243,-3.960,-3.54525
1563.48,-0.03,1563.9351,-3.930,-3.54431
1563.49,-0.03,1563.9421,-4.160,-3.54595
1563.5,-0.03,1563.9531,-3.910,-3.54499
1563.51,-0.03,1563.9639,-3.880,-3.54405
1563.52,-0.03,1563.9711,-4.200,-3.5458
1563.53,-0.03,1563.9826,-3.930,-3.54473
1563.54,-0.03,1563.9933,-3.880,-3.54377
1563.55,-0.03,1564.0005,-4.200,-3.54553
1563.56,-0.03,1564.0122,-3.890,-3.54469
1563.57,-0.03,1564.0231,-3.930,-3.54364
1563.58,-0.03,1564.0305,-4.200,-3.54528
1563.59,-0.03,1564.0422,-3.860,-3.54426
1563.6,-0.03,1564.0534,-3.910,-3.54334
1563.61,-0.03,1564.0610,-4.000,-3.54494
1563.62,-0.03,1564.0727,-3.880,-3.54407
1563.63,-0.03,1564.0834,-3.920,-3.54314
1563.64,-0.03,1564.0906,-4.020,-3.54495
1563.65,-0.03,1564.1025,-3.900,-3.54407
1563.66,-0.03,1564.1135,-3.890,-3.54326
1563.67,-0.03,1564.1206,-4.040,-3.54481
1563.68,-0.03,1564.1330,-3.930,-3.54416
1563.69,-0.03,1564.1442,-3.910,-3.54317
1563.7,-0.03,1564.1515,-3.940,-3.54488
1563.71,-0.03,1564.1635,-3.900,-3.54398
1563.72,-0.03,1564.1743,-3.910,-3.54307
1563.73,-0.03,1564.1815,-3.940,-3.54471
1563.74,-0.03,1564.1930,-3.880,-3.54373
1563.75,-0.03,1564.2038,-3.990,-3.54272
1563.76,-0.03,1564.2107,-3.900,-3.54444
1563.77,-0.03,1564.2220,-3.850,-3.54346
1563.78,-0.03,1564.2326,-3.960,-3.54245
1563.79,-0.03,1564.2394,-3.930,-3.54425
1563.8,-0.03,1564.2510,-3.900,-3.54309
1563.81,-0.03,1564.2617,-3.900,-3.5423
1563.82,-0.03,1564.2685,-3.960,-3.544
1563.83,-0.03,1564.2801,-3.880,-3.5431
1563.84,-0.03,1564.2908,-3.940,-3.54224
1563.85,-0.03,1564.2978,-3.960,-3.5441
1563.86,-0.03,1564.3092,-3.830,-3.54309
1563.87,-0.03,1564.3200,-3.920,-3.54229
1563.88,-0.03,1564.3304,-3.950,-3.54321
1563.89,-0.03,1564.3382,-3.900,-3.54303
1563.9,-0.02,1564.3488,-3.910,-3.54225
1563.91,-0.02,1564.3594,-3.970,-3.54298
1563.92,-0.03,1564.3681,-3.880,-3.54308
1563.93,-0.03,1564.3789,-3.940,-3.54201
1563.94,-0.03,1564.3898,-3.920,-3.54276
1563.95,-0.03,1564.3981,-3.930,-3.54273
1563.96,-0.03,1564.4091,-3.870,-3.54181
1563.97,-0.03,1564.4200,-3.960,-3.54278
1563.98,-0.03,1564.4286,-3.900,-3.54243
1563.99,-0.03,1564.4397,-3.960,-3.54163
1564,-0.03,1564.4508,-3.900,-3.54255
1564.01,-0.03,1564.4596,-3.900,-3.54237
1564.02,-0.03,1564.4705,-3.980,-3.54168
1564.03,-0.03,1564.4811,-3.920,-3.54246
1564.04,-0.03,1564.4893,-3.880,-3.54229
1564.05,-0.03,1564.5005,-3.940,-3.54151
1564.06,-0.03,1564.5114,-3.890,-3.54224
1564.07,-0.03,1564.5196,-3.900,-3.54218
1564.08,-0.03,1564.5308,-4.020,-3.54147
1564.09,-0.03,1564.5417,-3.860,-3.54219
1564.1,-0.03,1564.5501,-3.880,-3.54228
1564.11,-0.03,1564.5612,-4.130,-3.54127
1564.12,-0.03,1564.5721,-3.880,-3.5422
1564.13,-0.03,1564.5805,-3.880,-3.54213
1564.14,-0.03,1564.5913,-4.150,-3.54121
1564.15,-0.03,1564.6022,-3.880,-3.54205
1564.16,-0.03,1564.6102,-3.910,-3.54196
1564.17,-0.03,1564.6208,-4.230,-3.54109
1564.18,-0.03,1564.6316,-3.890,-3.54183
1564.19,-0.03,1564.6397,-3.880,-3.54188
1564.2,-0.03,1564.6507,-3.980,-3.54088
1564.21,-0.03,1564.6616,-3.880,-3.54174
1564.22,-0.03,1564.6699,-3.890,-3.54182
1564.23,-0.03,1564.6804,-3.970,-3.54079
1564.24,-0.03,1564.6913,-3.880,-3.54148
1564.25,-0.03,1564.6997,-3.890,-3.54146
1564.26,-0.03,1564.7103,-3.970,-3.54077
1564.27,-0.03,1564.7210,-3.900,-3.54144
1564.28,-0.03,1564.7292,-3.890,-3.54148
1564.29,-0.03,1564.7399,-3.960,-3.54077
1564.3,-0.03,1564.7504,-3.900,-3.5414
1564.31,-0.03,1564.7587,-3.910,-3.54133
1564.32,-0.03,1564.7698,-3.980,-3.54058
1564.33,-0.03,1564.7806,-3.850,-3.54145
1564.34,-0.03,1564.7921,-3.940,-3.54211
1564.35,-0.03,1564.8004,-3.990,-3.54037
1564.36,-0.03,1564.8112,-3.900,-3.54135
1564.37,-0.03,1564.8226,-3.900,-3.54205
1564.38,-0.03,1564.8308,-3.970,-3.5403
1564.39,-0.03,1564.8414,-3.820,-3.54093
1564.4,-0.03,1564.8525,-3.910,-3.54207
1564.41,-0.03,1564.8606,-3.900,-3.54025
1564.42,-0.03,1564.8712,-3.920,-3.54106
1564.43,-0.03,1564.8823,-3.930,-3.54177
1564.44,-0.03,1564.8902,-3.930,-3.53988
1564.45,-0.03,1564.9007,-3.850,-3.54077
1564.46,-0.03,1564.9118,-3.960,-3.54164
1564.47,-0.03,1564.9196,-3.950,-3.53972
1564.48,-0.03,1564.9303,-3.900,-3.54066
1564.49,-0.03,1564.9415,-3.970,-3.54154
1564.5,-0.03,1564.9496,-3.940,-3.53982
1564.51,-0.03,1564.9604,-3.870,-3.54076
1564.52,-0.03,1564.9718,-3.920,-3.54154
1564.53,-0.03,1564.9798,-3.890,-3.53974
1564.54,-0.03,1564.9906,-3.870,-3.54063
1564.55,-0.03,1565.0016,-4.000,-3.54141
1564.56,-0.03,1565.0096,-3.990,-3.53957
1564.57,-0.03,1565.0201,-3.940,-3.54041
1564.58,-0.03,1565.0312,-3.960,-3.54133
1564.59,-0.03,1565.0395,-3.940,-3.53954
1564.6,-0.03,1565.0504,-3.950,-3.54035
1564.61,-0.03,1565.0620,-4.000,-3.54119
1564.62,-0.03,1565.0701,-3.920,-3.53955
1564.63,-0.03,1565.0806,-3.900,-3.54034
1564.64,-0.03,1565.0920,-4.170,-3.54118
1564.65,-0.03,1565.1002,-3.880,-3.53924
1564.66,-0.03,1565.1108,-3.860,-3.54014
1564.67,-0.03,1565.1223,-4.200,-3.5411
1564.68,-0.03,1565.1305,-3.910,-3.53943
1564.69,-0.03,1565.1411,-3.910,-3.54018
1564.7,-0.03,1565.1522,-4.220,-3.5409
1564.71,-0.03,1565.1605,-3.910,-3.53912
1564.72,-0.03,1565.1709,-3.910,-3.54005
1564.73,-0.03,1565.1821,-3.940,-3.54099
1564.74,-0.03,1565.1899,-3.890,-3.53903
1564.75,-0.03,1565.2008,-3.890,-3.53999
1564.76,-0.03,1565.2117,-4.020,-3.54101
1564.77,-0.03,1565.2233,-3.850,-3.53997
1564.78,-0.03,1565.2303,-3.890,-3.53981
1564.79,-0.03,1565.2413,-3.920,-3.54073
1564.8,-0.03,1565.2529,-3.900,-3.53984
1564.81,-0.03,1565.2600,-3.880,-3.53997
1564.82,-0.03,1565.2711,-3.940,-3.54083
1564.83,-0.03,1565.2821,-3.900,-3.53985
1564.84,-0.03,1565.2892,-3.830,-3.53989
1564.85,-0.03,1565.3002,-4.000,-3.54086
1564.86,-0.03,1565.3116,-3.930,-3.53977
1564.87,-0.03,1565.3186,-3.910,-3.5399
1564.88,-0.03,1565.3299,-3.970,-3.5407
1564.89,-0.03,1565.3415,-3.920,-3.5398
1564.9,-0.03,1565.3490,-3.890,-3.53979
1564.91,-0.03,1565.3603,-4.000,-3.54063
1564.92,-0.03,1565.3720,-3.870,-3.53983
1564.93,-0.03,1565.3788,-3.910,-3.53975
1564.94,-0.03,1565.3903,-3.950,-3.54062
1564.95,-0.03,1565.4022,-3.880,-3.53962
1564.96,-0.03,1565.4091,-3.920,-3.53971
1564.97,-0.03,1565.4203,-3.940,-3.54048
1564.98,-0.03,1565.4324,-3.890,-3.53957
1564.99,-0.03,1565.4398,-3.890,-3.53944
1565,-0.03,1565.4512,-3.950,-3.54035
1565.01,-0.03,1565.4630,-3.870,-3.5396
1565.02,-0.03,1565.4697,-3.950,-3.53926
1565.03,-0.03,1565.4807,-3.950,-3.54032
1565.04,-0.03,1565.4925,-3.850,-3.53934
1565.05,-0.03,1565.4997,-3.900,-3.53919
1565.06,-0.03,1565.5108,-3.920,-3.54019
1565.07,-0.03,1565.5226,-3.870,-3.53942
1565.08,-0.03,1565.5292,-3.910,-3.53942
1565.09,-0.03,1565.5403,-3.920,-3.54024
1565.1,-0.03,1565.5518,-3.850,-3.53911
1565.11,-0.03,1565.5632,-3.980,-3.53841
1565.12,-0.03,1565.5703,-3.910,-3.54001
1565.13,-0.03,1565.5823,-3.880,-3.53916
1565.14,-0.03,1565.5936,-4.000,-3.5382
1565.15,-0.03,1565.6009,-3.900,-3.53981
1565.16,-0.03,1565.6125,-3.830,-3.53901
1565.17,-0.03,1565.6238,-4.170,-3.53801
1565.18,-0.03,1565.6313,-3.950,-3.54005
1565.19,-0.03,1565.6429,-3.900,-3.53897
1565.2,-0.03,1565.6543,-4.200,-3.53804
1565.21,-0.03,1565.6617,-3.840,-3.53976
1565.22,-0.03,1565.6732,-3.900,-3.53876
1565.23,-0.03,1565.6841,-3.970,-3.53783
1565.24,-0.03,1565.6917,-3.940,-3.5396
1565.25,-0.03,1565.7037,-3.860,-3.53867
1565.26,-0.03,1565.7148,-3.950,-3.53803
1565.27,-0.03,1565.7220,-3.890,-3.53974
1565.28,-0.03,1565.7340,-3.890,-3.53879
1565.29,-0.03,1565.7448,-3.900,-3.53784
1565.3,-0.03,1565.7519,-3.880,-3.53962
1565.31,-0.03,1565.7636,-3.890,-3.53865
1565.32,-0.03,1565.7744,-4.000,-3.53795
1565.33,-0.03,1565.7849,-3.870,-3.53878
1565.34,-0.03,1565.7931,-3.920,-3.53875
1565.35,-0.03,1565.8036,-3.930,-3.53774
1565.36,-0.03,1565.8139,-3.800,-3.53864
1565.37,-0.03,1565.8218,-3.810,-3.5386
1565.38,-0.03,1565.8327,-3.960,-3.53965
1565.39,-0.03,1565.8434,-3.890,-3.54076
1565.4,-0.03,1565.8518,-3.890,-3.54076
1565.41,-0.03,1565.8632,-3.930,-3.53976
1565.42,-0.03,1565.8741,-3.920,-3.5407
1565.43,-0.03,1565.8822,-3.870,-3.54063
1565.44,-0.03,1565.8932,-3.920,-3.53959
1565.45,-0.03,1565.9039,-3.840,-3.54053
1565.46,-0.03,1565.9123,-3.870,-3.54046
1565.47,-0.03,1565.9232,-3.910,-3.53973
1565.48,-0.03,1565.9336,-3.850,-3.54045
1565.49,-0.03,1565.9416,-3.920,-3.54058
1565.5,-0.03,1565.9525,-3.970,-3.53943
1565.51,-0.03,1565.9636,-3.840,-3.54037
1565.52,-0.03,1565.9719,-3.850,-3.5404
1565.53,-0.03,1565.9828,-3.950,-3.53923
1565.54,-0.03,1565.9937,-3.850,-3.54017
1565.55,-0.03,1566.0047,-3.960,-3.54119
1565.56,-0.03,1566.0126,-3.990,-3.53927
1565.57,-0.03,1566.0234,-3.900,-3.54015
1565.58,-0.03,1566.0343,-3.910,-3.541
1565.59,-0.03,1566.0422,-3.950,-3.53913
1565.6,-0.03,1566.0528,-3.880,-3.54003
1565.61,-0.03,1566.0639,-3.900,-3.54079
1565.62,-0.03,1566.0718,-3.900,-3.53894
1565.63,-0.03,1566.0820,-3.830,-3.53992
1565.64,-0.03,1566.0928,-3.920,-3.54068
1565.65,-0.03,1566.1008,-3.910,-3.53873
1565.66,-0.03,1566.1113,-3.850,-3.53956
1565.67,-0.03,1566.1222,-3.950,-3.54038
1565.68,-0.03,1566.1302,-3.950,-3.53873
1565.69,-0.03,1566.1408,-3.870,-3.53958
1565.7,-0.03,1566.1518,-3.940,-3.54038
1565.71,-0.03,1566.1597,-3.880,-3.53835
1565.72,-0.03,1566.1703,-3.950,-3.53937
1565.73,-0.03,1566.1812,-3.920,-3.54025
1565.74,-0.03,1566.1893,-3.960,-3.53832
1565.75,-0.03,1566.1997,-3.850,-3.54142
1565.76,-0.03,1566.2105,-3.920,-3.54217
1565.77,-0.03,1566.2223,-3.850,-3.54129
1565.78,-0.03,1566.2294,-3.890,-3.54125
1565.79,-0.03,1566.2405,-3.920,-3.54207
1565.8,-0.03,1566.2527,-3.890,-3.54089
1565.81,-0.03,1566.2596,-3.870,-3.54109
1565.82,-0.03,1566.2707,-3.930,-3.54197
1565.83,-0.03,1566.2824,-3.910,-3.5408
1565.84,-0.03,1566.2894,-3.880,-3.54077
1565.85,-0.03,1566.3004,-3.940,-3.54188
1565.86,-0.03,1566.3123,-3.890,-3.54071
1565.87,-0.03,1566.3193,-3.880,-3.54065
1565.88,-0.03,1566.3299,-3.930,-3.54161
1565.89,-0.03,1566.3414,-3.890,-3.54087
1565.9,-0.03,1566.3482,-3.870,-3.54064
1565.91,-0.03,1566.3593,-3.950,-3.54149
1565.92,-0.03,1566.3711,-3.870,-3.54064
1565.93,-0.03,1566.3783,-3.880,-3.54054
1565.94,-0.03,1566.3898,-3.940,-3.54143
1565.95,-0.03,1566.4017,-3.910,-3.54056
1565.96,-0.03,1566.4091,-3.900,-3.54045
1565.97,-0.03,1566.4204,-3.960,-3.54139
1565.98,-0.03,1566.4324,-3.860,-3.54033
1565.99,-0.03,1566.4430,-3.880,-3.53938
1566,-0.03,1566.4502,-3.980,-3.54116
1566.01,-0.03,1566.4618,-3.910,-3.54019
1566.02,-0.03,1566.4726,-3.880,-3.53936
1566.03,-0.03,1566.4798,-3.980,-3.5411
1566.04,-0.03,1566.4917,-3.850,-3.54014
1566.05,-0.03,1566.5029,-3.880,-3.53916
1566.06,-0.03,1566.5102,-4.220,-3.54092
1566.07,-0.03,1566.5224,-3.870,-3.53994
1566.08,-0.03,1566.5333,-3.920,-3.53884
1566.09,-0.03,1566.5404,-4.190,-3.54064
1566.1,-0.03,1566.5523,-3.900,-3.53965
1566.11,-0.03,1566.5633,-3.890,-3.53866
1566.12,-0.03,1566.5703,-4.190,-3.54243
1566.13,-0.03,1566.5816,-3.900,-3.54154
1566.14,-0.03,1566.5919,-3.920,-3.54058
1566.15,-0.03,1566.5990,-4.190,-3.54249
1566.16,-0.03,1566.6104,-3.870,-3.54144
1566.17,-0.03,1566.6215,-3.920,-3.54045
1566.18,-0.03,1566.6289,-4.140,-3.5422
1566.19,-0.03,1566.6410,-3.900,-3.54117
1566.2,-0.03,1566.6523,-3.900,-3.54038
1566.21,-0.03,1566.6633,-3.920,-3.5413
1566.22,-0.03,1566.6719,-3.820,-3.54128
1566.23,-0.03,1566.6828,-3.930,-3.54035
1566.24,-0.03,1566.6936,-3.940,-3.54107
1566.25,-0.03,1566.7013,-3.890,-3.54119
1566.26,-0.03,1566.7122,-3.900,-3.54011
1566.27,-0.03,1566.7230,-3.890,-3.54114
1566.28,-0.03,1566.7312,-3.890,-3.54101
1566.29,-0.03,1566.7418,-3.900,-3.54002
1566.3,-0.03,1566.7525,-3.890,-3.54093
1566.31,-0.03,1566.7607,-3.920,-3.54093
1566.32,-0.03,1566.7715,-3.900,-3.53991
1566.33,-0.03,1566.7821,-3.910,-3.54075
1566.34,-0.03,1566.7903,-3.910,-3.54067
1566.35,-0.03,1566.8008,-3.900,-3.53982
1566.36,-0.03,1566.8115,-3.940,-3.54077
1566.37,-0.03,1566.8199,-3.840,-3.54062
1566.38,-0.03,1566.8307,-3.930,-3.53974
1566.39,-0.03,1566.8413,-3.910,-3.54063
1566.4,-0.03,1566.8495,-3.890,-3.54041
1566.41,-0.03,1566.8602,-3.900,-3.53966
1566.42,-0.03,1566.8708,-3.940,-3.54037
1566.43,-0.03,1566.8820,-3.870,-3.54144
1566.44,-0.02,1566.8904,-3.880,-3.5396
1566.45,-0.03,1566.9012,-3.960,-3.54047
1566.46,-0.03,1566.9129,-3.820,-3.54136
1566.47,-0.03,1566.9210,-3.900,-3.53944
1566.48,-0.03,1566.9322,-3.900,-3.54035
1566.49,-0.03,1566.9440,-3.900,-3.54348
1566.5,-0.03,1566.9525,-3.900,-3.54173
1566.51,-0.03,1566.9635,-3.880,-3.54268
1566.52,-0.03,1566.9752,-3.910,-3.54345
1566.53,-0.03,1566.9836,-3.970,-3.54151
1566.54,-0.03,1566.9944,-3.850,-3.54256
1566.55,-0.03,1567.0056,-3.930,-3.54335
1566.56,-0.03,1567.0136,-4.140,-3.54142
1566.57,-0.03,1567.0246,-3.920,-3.54233
1566.58,-0.03,1567.0364,-3.890,-3.54332
1566.59,-0.03,1567.0449,-3.910,-3.54135
1566.6,-0.03,1567.0561,-3.840,-3.54232
1566.61,-0.03,1567.0676,-3.950,-3.54307
1566.62,-0.03,1567.0757,-3.940,-3.54134
1566.63,-0.03,1567.0866,-3.840,-3.54222
1566.64,-0.03,1567.0980,-3.860,-3.54296
1566.65,-0.03,1567.1097,-3.900,-3.54199
1566.66,-0.03,1567.1170,-3.860,-3.54213
1566.67,-0.03,1567.1282,-3.890,-3.54291
1566.68,-0.03,1567.1396,-3.890,-3.54193
1566.69,-0.03,1567.1464,-3.910,-3.54182
1566.7,-0.03,1567.1575,-3.890,-3.54286
1566.71,-0.03,1567.1694,-3.890,-3.54189
1566.72,-0.03,1567.1764,-3.890,-3.54189
1566.73,-0.03,1567.1880,-3.980,-3.5428
1566.74,-0.03,1567.1997,-3.880,-3.5417
1566.75,-0.03,1567.2067,-3.890,-3.54181
1566.76,-0.03,1567.2178,-3.980,-3.54275
1566.77,-0.03,1567.2298,-3.910,-3.54171
1566.78,-0.03,1567.2369,-3.870,-3.5416
1566.79,-0.03,1567.2482,-3.920,-3.5424
1566.8,-0.03,1567.2598,-3.850,-3.54143
1566.81,-0.03,1567.2668,-3.860,-3.54139
1566.82,-0.03,1567.2777,-3.990,-3.54235
1566.83,-0.03,1567.2893,-3.850,-3.5413
1566.84,-0.03,1567.2963,-3.840,-3.54118
1566.85,-0.03,1567.3073,-3.930,-3.54209
1566.86,-0.03,1567.3188,-3.830,-3.54319
1566.87,-0.03,1567.3297,-3.820,-3.54221
1566.88,-0.03,1567.3369,-3.960,-3.54403
1566.89,-0.03,1567.3484,-3.900,-3.54314
1566.9,-0.03,1567.3592,-3.850,-3.54213
1566.91,-0.03,1567.3663,-3.960,-3.54397
1566.92,-0.03,1567.3776,-3.880,-3.54292
1566.93,-0.03,1567.3884,-3.920,-3.54201
1566.94,-0.03,1567.3954,-3.910,-3.54385
1566.95,-0.03,1567.4066,-3.940,-3.54285
1566.96,-0.03,1567.4173,-3.840,-3.54186
1566.97,-0.03,1567.4246,-3.950,-3.54381
1566.98,-0.03,1567.4362,-3.880,-3.54259
1566.99,-0.03,1567.4473,-3.870,-3.54168
1567,-0.03,1567.4548,-3.950,-3.54344
1567.01,-0.03,1567.4663,-3.860,-3.54251
1567.02,-0.03,1567.4769,-3.850,-3.5415
1567.03,-0.03,1567.4843,-3.950,-3.54329
1567.04,-0.03,1567.4958,-3.860,-3.54203
1567.05,-0.03,1567.5064,-3.850,-3.54122
1567.06,-0.03,1567.5137,-3.950,-3.54296
1567.07,-0.03,1567.5248,-3.910,-3.54212
1567.08,-0.03,1567.5350,-3.890,-3.54096
1567.09,-0.03,1567.5451,-3.950,-3.54199
1567.1,-0.03,1567.5531,-3.920,-3.54184
1567.11,-0.03,1567.5637,-3.860,-3.54096
1567.12,-0.03,1567.5743,-3.940,-3.5419
1567.13,-0.03,1567.5828,-3.870,-3.54179
1567.14,-0.03,1567.5941,-3.820,-3.54063
1567.15,-0.03,1567.6052,-3.940,-3.54148
1567.16,-0.03,1567.6138,-3.880,-3.54142
1567.17,-0.03,1567.6250,-3.890,-3.54034
1567.18,-0.03,1567.6362,-4.110,-3.54112
1567.19,-0.03,1567.6445,-3.830,-3.54116
1567.2,-0.03,1567.6557,-3.920,-3.53997
1567.21,-0.02,1567.6671,-3.960,-3.54099
1567.22,-0.03,1567.6751,-3.870,-3.54083
1567.23,-0.03,1567.6862,-3.850,-3.54184
1567.24,-0.03,1567.6972,-3.970,-3.54265
1567.25,-0.03,1567.7053,-3.870,-3.54256
1567.26,-0.03,1567.7167,-3.880,-3.54149
1567.27,-0.03,1567.7276,-3.960,-3.54254
1567.28,-0.03,1567.7357,-3.890,-3.54245
1567.29,-0.02,1567.7469,-3.840,-3.54142
1567.3,-0.03,1567.7577,-3.920,-3.54241
1567.31,-0.03,1567.7690,-3.980,-3.54324
1567.32,-0.03,1567.7769,-3.960,-3.54125
1567.33,-0.03,1567.7878,-3.920,-3.54217
1567.34,-0.03,1567.7989,-3.890,-3.543
1567.35,-0.03,1567.8068,-3.940,-3.541
1567.36,-0.03,1567.8201,-3.900,-3.54177
1567.37,-0.03,1567.8300,-3.890,-3.54237
1567.38,-0.02,1567.8384,-3.910,-3.5414
1567.39,-0.03,1567.8503,-3.870,-3.54137
1567.4,-0.03,1567.8605,-3.860,-3.54236
1567.41,-0.03,1567.8689,-3.950,-3.54128
1567.42,-0.03,1567.8806,-3.910,-3.54112
1567.43,-0.03,1567.8907,-3.870,-3.54202
1567.44,-0.03,1567.8992,-3.890,-3.54083
1567.45,-0.03,1567.9108,-3.870,-3.54076
1567.46,-0.03,1567.9212,-3.890,-3.54162
1567.47,-0.03,1567.9296,-3.950,-3.5407
1567.48,-0.03,1567.9410,-3.880,-3.54046
1567.49,-0.03,1567.9515,-3.870,-3.54139
1567.5,-0.03,1567.9639,-3.920,-3.54122
1567.51,-0.03,1567.9715,-3.850,-3.5402
1567.52,-0.03,1567.9817,-3.880,-3.54104
1567.53,-0.03,1567.9948,-3.930,-3.54104
1567.54,-0.03,1568.0026,-3.840,-3.5401
1567.55,-0.03,1568.0127,-3.810,-3.54101
1567.56,-0.03,1568.0254,-3.940,-3.54077
1567.57,-0.03,1568.0329,-3.850,-3.53995
1567.58,-0.03,1568.0431,-3.860,-3.54077
1567.59,-0.03,1568.0559,-3.880,-3.54069
1567.6,-0.03,1568.0634,-3.840,-3.54169
1567.61,-0.03,1568.0734,-3.890,-3.54268
1567.62,-0.03,1568.0857,-3.880,-3.54254
1567.63,-0.03,1568.0935,-3.840,-3.54142
1567.64,-0.03,1568.1037,-3.850,-3.54224
1567.65,-0.03,1568.1162,-3.870,-3.5422
1567.66,-0.03,1568.1241,-3.910,-3.54122
1567.67,-0.03,1568.1344,-3.910,-3.54199
1567.68,-0.03,1568.1470,-3.940,-3.54194
1567.69,-0.03,1568.1547,-3.860,-3.5409
1567.7,-0.03,1568.1648,-3.910,-3.54181
1567.71,-0.03,1568.1773,-3.910,-3.54158
1567.72,-0.03,1568.1882,-3.890,-3.54074
1567.73,-0.03,1568.1954,-3.930,-3.54156
1567.74,-0.03,1568.2077,-3.850,-3.54138
1567.75,-0.03,1568.2184,-3.870,-3.54054
1567.76,-0.03,1568.2255,-3.970,-3.54142
1567.77,-0.03,1568.2380,-3.820,-3.5412
1567.78,-0.03,1568.2490,-3.850,-3.5404
1567.79,-0.03,1568.2563,-3.930,-3.54111
1567.8,-0.03,1568.2691,-3.770,-3.54099
1567.81,-0.03,1568.2801,-3.910,-3.54009
1567.82,-0.03,1568.2875,-4.140,-3.54103
1567.83,-0.03,1568.3000,-3.840,-3.54079
1567.84,-0.03,1568.3108,-3.920,-3.53993
1567.85,-0.03,1568.3181,-3.960,-3.54087
1567.86,-0.03,1568.3310,-3.840,-3.54064
1567.87,-0.03,1568.3419,-3.880,-3.53986
1567.88,-0.03,1568.3488,-3.970,-3.54053
1567.89,-0.03,1568.3610,-3.890,-3.54051
1567.9,-0.03,1568.3718,-3.960,-3.5397
1567.91,-0.03,1568.3788,-3.990,-3.54042
1567.92,-0.03,1568.3907,-3.880,-3.54049
1567.93,-0.03,1568.4017,-3.890,-3.53949
1567.94,-0.03,1568.4132,-3.910,-3.53946
1567.95,-0.03,1568.4203,-3.860,-3.5402
1567.96,-0.03,1568.4307,-3.880,-3.53934
1567.97,-0.03,1568.4417,-3.900,-3.54153
1567.98,-0.03,1568.4488,-3.860,-3.54221
1567.99,-0.03,1568.4595,-3.870,-3.54136
1568,-0.03,1568.4706,-3.930,-3.54131
1568.01,-0.03,1568.4774,-3.860,-3.54217
1568.02,-0.03,1568.4877,-3.860,-3.54114
1568.03,-0.03,1568.4989,-3.890,-3.5411
1568.04,-0.03,1568.5062,-3.850,-3.54191
1568.05,-0.03,1568.5170,-3.880,-3.54109
1568.06,-0.03,1568.5289,-3.940,-3.54107
1568.07,-0.03,1568.5362,-3.840,-3.54196
1568.08,-0.03,1568.5468,-3.840,-3.54079
1568.09,-0.03,1568.5584,-3.840,-3.54085
1568.1,-0.03,1568.5656,-3.840,-3.54185
1568.11,-0.03,1568.5760,-3.860,-3.54072
1568.12,-0.03,1568.5878,-3.940,-3.54064
1568.13,-0.03,1568.5952,-3.870,-3.54166
1568.14,-0.03,1568.6058,-3.860,-3.54065
1568.15,-0.03,1568.6174,-3.930,-3.54056
1568.16,-0.03,1568.6276,-3.930,-3.54152
1568.17,-0.03,1568.6359,-3.890,-3.54032
1568.18,-0.03,1568.6476,-3.920,-3.54034
1568.19,-0.03,1568.6581,-3.940,-3.54134
1568.2,-0.03,1568.6663,-3.920,-3.54034
1568.21,-0.03,1568.6782,-3.930,-3.54015
1568.22,-0.03,1568.6884,-3.860,-3.54116
1568.23,-0.03,1568.6966,-3.840,-3.54028
1568.24,-0.03,1568.7080,-3.880,-3.54018
1568.25,-0.03,1568.7183,-3.910,-3.54113
1568.26,-0.03,1568.7266,-3.970,-3.5401
1568.27,-0.03,1568.7380,-3.930,-3.53995
1568.28,-0.03,1568.7481,-3.810,-3.54102
1568.29,-0.03,1568.7563,-3.920,-3.54006
1568.3,-0.03,1568.7682,-3.870,-3.54006
1568.31,-0.03,1568.7783,-3.830,-3.54084
1568.32,-0.02,1568.7867,-3.930,-3.53987
1568.33,-0.03,1568.7984,-3.900,-3.53962
1568.34,-0.03,1568.8086,-3.790,-3.54259
1568.35,-0.03,1568.8167,-3.900,-3.54157
1568.36,-0.03,1568.8283,-3.890,-3.54148
1568.37,-0.03,1568.8384,-3.860,-3.54238
1568.38,-0.03,1568.8509,-4.160,-3.54234
1568.39,-0.03,1568.8586,-3.860,-3.54132
1568.4,-0.03,1568.8685,-3.890,-3.54238
1568.41,-0.03,1568.8805,-4.080,-3.5422
1568.42,-0.03,1568.8878,-3.910,-3.54108
1568.43,-0.03,1568.8977,-3.830,-3.54221
1568.44,-0.03,1568.9099,-4.140,-3.54196
1568.45,-0.03,1568.9176,-3.910,-3.54115
1568.46,-0.03,1568.9277,-3.860,-3.54202
1568.47,-0.03,1568.9396,-4.180,-3.54199
1568.48,-0.03,1568.9473,-3.910,-3.54114
1568.49,-0.03,1568.9571,-3.880,-3.54197
1568.5,-0.03,1568.9687,-3.950,-3.54197
1568.51,-0.03,1568.9759,-3.900,-3.54111
1568.52,-0.03,1568.9857,-3.860,-3.54205
1568.53,-0.03,1568.9973,-3.950,-3.54193
1568.54,-0.03,1569.0044,-3.930,-3.54089
1568.55,-0.03,1569.0140,-3.790,-3.54179
1568.56,-0.03,1569.0253,-3.890,-3.5417
1568.57,-0.03,1569.0327,-3.920,-3.54073
1568.58,-0.03,1569.0427,-3.860,-3.54159
1568.59,-0.03,1569.0548,-3.980,-3.54152
1568.6,-0.03,1569.0653,-3.920,-3.54048
1568.61,-0.03,1569.0720,-3.810,-3.54146
1568.62,-0.03,1569.0837,-3.880,-3.54145
1568.63,-0.03,1569.0941,-3.870,-3.54045
1568.64,-0.03,1569.1007,-3.860,-3.54139
1568.65,-0.03,1569.1129,-3.900,-3.54155
1568.66,-0.03,1569.1235,-3.900,-3.54057
1568.67,-0.03,1569.1301,-3.890,-3.54148
1568.68,-0.03,1569.1420,-3.900,-3.54144
1568.69,-0.03,1569.1527,-3.900,-3.54037
1568.7,-0.03,1569.1595,-3.810,-3.54154
1568.71,-0.03,1569.1718,-3.870,-3.54338
1568.72,-0.03,1569.1830,-3.900,-3.54251
1568.73,-0.03,1569.1900,-3.860,-3.54343
1568.74,-0.03,1569.2023,-3.930,-3.54333
1568.75,-0.03,1569.2131,-3.920,-3.5424
1568.76,-0.03,1569.2201,-3.780,-3.54343
1568.77,-0.03,1569.2324,-3.910,-3.54352
1568.78,-0.03,1569.2433,-3.870,-3.54247
1568.79,-0.03,1569.2501,-3.900,-3.54341
1568.8,-0.03,1569.2620,-3.880,-3.54341
1568.81,-0.03,1569.2725,-3.890,-3.54249
1568.82,-0.03,1569.2841,-3.860,-3.54222
1568.83,-0.03,1569.2918,-3.910,-3.54317
1568.84,-0.03,1569.3030,-3.910,-3.54227
1568.85,-0.03,1569.3151,-3.840,-3.54221
1568.86,-0.03,1569.3229,-3.970,-3.54313
1568.87,-0.03,1569.3339,-3.830,-3.542
1568.88,-0.03,1569.3461,-3.900,-3.54198
1568.89,-0.03,1569.3539,-3.970,-3.54301
1568.9,-0.03,1569.3648,-3.890,-3.54194
1568.91,-0.03,1569.3766,-3.880,-3.54187
1568.92,-0.03,1569.3846,-4.130,-3.54291
1568.93,-0.03,1569.3955,-3.890,-3.54181
1568.94,-0.03,1569.4073,-3.860,-3.54182
1568.95,-0.03,1569.4149,-4.130,-3.54283
1568.96,-0.03,1569.4257,-3.890,-3.54193
1568.97,-0.03,1569.4374,-3.880,-3.54168
1568.98,-0.03,1569.4450,-4.100,-3.54266
1568.99,-0.03,1569.4559,-3.810,-3.5417
1569,-0.03,1569.4677,-3.860,-3.54169
1569.01,-0.03,1569.4752,-3.950,-3.54267
1569.02,-0.03,1569.4858,-3.890,-3.54163
1569.03,-0.03,1569.4974,-3.860,-3.54149
1569.04,-0.03,1569.5072,-3.920,-3.5425
1569.05,-0.03,1569.5154,-3.890,-3.54136
1569.06,-0.03,1569.5268,-3.860,-3.54141
1569.07,-0.03,1569.5367,-4.000,-3.5423
1569.08,-0.03,1569.5445,-3.840,-3.54329
1569.09,-0.03,1569.5558,-3.900,-3.54328
1569.1,-0.03,1569.5659,-3.910,-3.54427
1569.11,-0.03,1569.5742,-3.870,-3.54317
1569.12,-0.03,1569.5858,-3.880,-3.54323
1569.13,-0.03,1569.5961,-3.970,-3.54415
1569.14,-0.03,1569.6043,-3.860,-3.54316
1569.15,-0.03,1569.6157,-3.880,-3.54322
1569.16,-0.03,1569.6256,-3.950,-3.54405
1569.17,-0.03,1569.6335,-3.910,-3.5432
1569.18,-0.03,1569.6451,-3.900,-3.54303
1569.19,-0.03,1569.6550,-3.930,-3.54409
1569.2,-0.03,1569.6633,-3.860,-3.54313
1569.21,-0.03,1569.6747,-3.850,-3.54292
1569.22,-0.03,1569.6848,-3.930,-3.54409
1569.23,-0.03,1569.6928,-3.840,-3.54303
1569.24,-0.03,1569.7037,-3.860,-3.54299
1569.25,-0.03,1569.7135,-3.900,-3.54396
1569.26,-0.03,1569.7253,-3.810,-3.54389
1569.27,-0.03,1569.7327,-3.840,-3.54294
1569.28,-0.03,1569.7428,-3.950,-3.54402
1569.29,-0.03,1569.7548,-3.860,-3.54386
1569.3,-0.03,1569.7619,-3.890,-3.54297
1569.31,-0.03,1569.7720,-3.960,-3.54402
1569.32,-0.03,1569.7840,-3.850,-3.54394
1569.33,-0.03,1569.7913,-3.870,-3.5429
1569.34,-0.03,1569.8010,-4.180,-3.54381
1569.35,-0.03,1569.8129,-3.860,-3.54364
1569.36,-0.03,1569.8202,-3.890,-3.5427
1569.37,-0.03,1569.8301,-3.930,-3.54384
1569.38,-0.03,1569.8419,-3.860,-3.54372
1569.39,-0.03,1569.8492,-3.810,-3.5428
1569.4,-0.03,1569.8591,-3.970,-3.54375
1569.41,-0.03,1569.8711,-3.880,-3.54377
1569.42,-0.03,1569.8782,-3.830,-3.54277
1569.43,-0.03,1569.8879,-3.930,-3.54365
1569.44,-0.03,1569.8999,-3.840,-3.5435
1569.45,-0.03,1569.9074,-3.830,-3.54483
1569.46,-0.03,1569.9173,-3.910,-3.54593
1569.47,-0.03,1569.9295,-3.870,-3.54584
1569.48,-0.03,1569.9403,-3.890,-3.5448
1569.49,-0.03,1569.9469,-3.900,-3.54586
1569.5,-0.03,1569.9592,-3.910,-3.54575
1569.51,-0.03,1569.9698,-3.870,-3.54474
1569.52,-0.03,1569.9766,-3.920,-3.54579
1569.53,-0.03,1569.9890,-3.840,-3.54563
1569.54,-0.03,1569.9998,-3.870,-3.54448
1569.55,-0.03,1570.0066,-3.990,-3.54551
1569.56,-0.03,1570.0186,-3.870,-3.54556
1569.57,-0.03,1570.0293,-3.820,-3.5445
1569.58,-0.03,1570.0363,-3.930,-3.54555
1569.59,-0.03,1570.0483,-3.920,-3.54537
1569.6,-0.03,1570.0585,-3.890,-3.54458
1569.61,-0.03,1570.0650,-3.920,-3.54533
1569.62,-0.03,1570.0770,-3.820,-3.54541
1569.63,-0.03,1570.0877,-3.890,-3.5444
1569.64,-0.03,1570.0947,-3.920,-3.54526
1569.65,-0.03,1570.1073,-3.840,-3.54539
1569.66,-0.03,1570.1181,-3.840,-3.54442
1569.67,-0.03,1570.1248,-3.890,-3.54531
1569.68,-0.03,1570.1372,-3.890,-3.54529
1569.69,-0.03,1570.1480,-3.910,-3.54432
1569.7,-0.03,1570.1595,-3.990,-3.54418
1569.71,-0.03,1570.1671,-3.860,-3.54511
1569.72,-0.03,1570.1780,-3.890,-3.54416
1569.73,-0.03,1570.1897,-3.880,-3.54401
1569.74,-0.03,1570.1972,-3.830,-3.54505
1569.75,-0.03,1570.2079,-3.840,-3.54412
1569.76,-0.03,1570.2196,-3.950,-3.54393
1569.77,-0.02,1570.2271,-3.830,-3.54491
1569.78,-0.03,1570.2381,-3.840,-3.5438
1569.79,-0.03,1570.2501,-3.920,-3.54378
1569.8,-0.03,1570.2576,-3.860,-3.54483
1569.81,-0.03,1570.2682,-3.850,-3.54384
1569.82,-0.03,1570.2797,-3.890,-3.5458
1569.83,-0.03,1570.2872,-3.830,-3.54685
1569.84,-0.03,1570.2978,-3.820,-3.54581
1569.85,-0.03,1570.3094,-3.910,-3.54592
1569.86,-0.03,1570.3169,-3.830,-3.54692
1569.87,-0.03,1570.3275,-3.830,-3.54586
1569.88,-0.03,1570.3393,-3.910,-3.54582
1569.89,-0.03,1570.3495,-3.870,-3.54695
1569.9,-0.03,1570.3578,-3.820,-3.54591
1569.91,-0.03,1570.3696,-3.930,-3.54595
1569.92,-0.03,1570.3798,-3.850,-3.54674
1569.93,-0.03,1570.3882,-3.850,-3.54584
1569.94,-0.03,1570.3997,-3.880,-3.5458
1569.95,-0.03,1570.4101,-3.850,-3.54668
1569.96,-0.03,1570.4179,-3.880,-3.54575
1569.97,-0.03,1570.4298,-3.880,-3.54574
1569.98,-0.03,1570.4402,-3.770,-3.54659
1569.99,-0.03,1570.4482,-3.880,-3.54564
1570,-0.03,1570.4595,-3.880,-3.54571
1570.01,-0.03,1570.4693,-3.800,-3.54666
1570.02,-0.03,1570.4773,-3.870,-3.54549
1570.03,-0.03,1570.4886,-3.910,-3.54542
1570.04,-0.03,1570.4988,-3.850,-3.54642
1570.05,-0.03,1570.5065,-3.850,-3.54533
1570.06,-0.03,1570.5181,-3.930,-3.54532
1570.07,-0.03,1570.5279,-3.850,-3.54607
1570.08,-0.03,1570.5361,-3.900,-3.54507
1570.09,-0.03,1570.5476,-4.010,-3.5451
1570.1,-0.03,1570.5574,-3.830,-3.54612
1570.11,-0.03,1570.5697,-3.910,-3.54593
1570.12,-0.03,1570.5771,-3.890,-3.54499
1570.13,-0.03,1570.5871,-3.850,-3.546
1570.14,-0.03,1570.5992,-3.900,-3.54591
1570.15,-0.03,1570.6064,-3.940,-3.54465
1570.16,-0.03,1570.6164,-3.850,-3.54563
1570.17,-0.03,1570.6290,-3.930,-3.54563
1570.18,-0.03,1570.6365,-3.910,-3.54489
1570.19,-0.03,1570.6466,-3.820,-3.54775
1570.2,-0.03,1570.6591,-3.830,-3.54758
1570.21,-0.03,1570.6668,-3.910,-3.54642
1570.22,-0.03,1570.6769,-3.850,-3.54745
1570.23,-0.03,1570.6896,-3.880,-3.54729
1570.24,-0.03,1570.6976,-3.970,-3.5463
1570.25,-0.03,1570.7080,-3.850,-3.54719
1570.26,-0.03,1570.7204,-3.870,-3.54712
1570.27,-0.03,1570.7280,-3.820,-3.54612
1570.28,-0.03,1570.7382,-3.850,-3.54698
1570.29,-0.03,1570.7504,-3.890,-3.54686
1570.3,-0.03,1570.7579,-3.910,-3.54594
1570.31,-0.03,1570.7681,-3.870,-3.54701
1570.32,-0.03,1570.7804,-3.940,-3.54687
1570.33,-0.03,1570.7913,-3.790,-3.54571
1570.34,-0.03,1570.7982,-3.880,-3.54684
1570.35,-0.03,1570.8099,-3.930,-3.5467
1570.36,-0.03,1570.8202,-3.840,-3.5455
1570.37,-0.03,1570.8271,-3.820,-3.54643
1570.38,-0.03,1570.8391,-3.950,-3.54644
1570.39,-0.02,1570.8495,-3.840,-3.54529
1570.4,-0.03,1570.8561,-3.820,-3.54634
1570.41,-0.03,1570.8682,-3.940,-3.54613
1570.42,-0.03,1570.8790,-3.840,-3.54536
1570.43,-0.02,1570.8858,-3.850,-3.5461
1570.44,-0.03,1570.8981,-3.900,-3.54606
1570.45,-0.03,1570.9089,-3.890,-3.54512
1570.46,-0.03,1570.9157,-3.820,-3.5459
1570.47,-0.03,1570.9278,-3.900,-3.54596
1570.48,-0.03,1570.9389,-3.860,-3.54492
1570.49,-0.03,1570.9457,-3.770,-3.54573
1570.5,-0.03,1570.9577,-3.950,-3.54564
1570.51,-0.03,1570.9688,-3.860,-3.5446
1570.52,-0.03,1570.9758,-3.850,-3.54561
1570.53,-0.03,1570.9881,-3.920,-3.54561
1570.54,-0.03,1570.9990,-3.840,-3.54457
1570.55,-0.03,1571.0108,-3.850,-3.54433
1570.56,-0.03,1571.0182,-3.910,-3.54695
1570.57,-0.03,1571.0293,-3.810,-3.54601
1570.58,-0.03,1571.0409,-3.850,-3.54598
1570.59,-0.03,1571.0483,-3.970,-3.54684
1570.6,-0.03,1571.0588,-3.840,-3.54604
1570.61,-0.03,1571.0704,-3.870,-3.54571
1570.62,-0.03,1571.0776,-3.940,-3.54646
1570.63,-0.03,1571.0881,-3.870,-3.5455
1570.64,-0.03,1571.0997,-3.810,-3.54554
1570.65,-0.03,1571.1070,-3.880,-3.54628
1570.66,-0.03,1571.1173,-3.890,-3.54537
1570.67,-0.03,1571.1283,-3.860,-3.5451
1570.68,-0.03,1571.1353,-3.940,-3.54617
1570.69,-0.03,1571.1458,-3.900,-3.54515
1570.7,-0.03,1571.1573,-3.880,-3.54516
1570.71,-0.03,1571.1647,-3.940,-3.54594
1570.72,-0.03,1571.1753,-3.880,-3.54493
1570.73,-0.03,1571.1865,-3.880,-3.54488
1570.74,-0.03,1571.1939,-3.930,-3.5458
1570.75,-0.03,1571.2044,-3.880,-3.54476
1570.76,-0.03,1571.2158,-3.870,-3.54476
1570.77,-0.03,1571.2260,-3.940,-3.54559
1570.78,-0.03,1571.2340,-3.880,-3.54469
1570.79,-0.03,1571.2456,-3.800,-3.54475
1570.8,-0.03,1571.2556,-3.900,-3.54551
1570.81,-0.03,1571.2640,-3.890,-3.54448
1570.82,-0.03,1571.2756,-3.870,-3.54446
1570.83,-0.03,1571.2857,-3.930,-3.54514
1570.84,-0.03,1571.2942,-3.900,-3.54424
1570.85,-0.03,1571.3061,-3.850,-3.54426
1570.86,-0.03,1571.3164,-3.930,-3.54497
1570.87,-0.03,1571.3249,-3.920,-3.54395
1570.88,-0.03,1571.3366,-3.810,-3.54374
1570.89,-0.03,1571.3469,-4.170,-3.54452
1570.9,-0.03,1571.3550,-3.820,-3.5438
1570.91,-0.03,1571.3664,-3.830,-3.54361
1570.92,-0.03,1571.3761,-3.920,-3.54435
1570.93,-0.03,1571.3842,-3.850,-3.54566
1570.94,-0.03,1571.3952,-3.850,-3.54548
1570.95,-0.03,1571.4053,-3.970,-3.5463
1570.96,-0.03,1571.4133,-3.900,-3.54541
1570.97,-0.03,1571.4252,-3.850,-3.54508
1570.98,-0.03,1571.4352,-3.970,-3.54619
1570.99,-0.03,1571.4474,-3.830,-3.54617
1571,-0.03,1571.4549,-3.880,-3.54502
1571.01,-0.03,1571.4652,-3.940,-3.54589
1571.02,-0.03,1571.4775,-3.800,-3.54565
1571.03,-0.03,1571.4849,-3.810,-3.5447
1571.04,-0.03,1571.4954,-4.170,-3.54548
1571.05,-0.03,1571.5078,-3.880,-3.54535
1571.06,-0.03,1571.5151,-3.830,-3.54445
1571.07,-0.03,1571.5255,-4.120,-3.54537
1571.08,-0.03,1571.5379,-3.850,-3.54501
1571.09,-0.03,1571.5456,-3.830,-3.54404
1571.1,-0.03,1571.5559,-4.140,-3.54491
1571.11,-0.03,1571.5684,-3.810,-3.54478
1571.12,-0.03,1571.5760,-3.810,-3.54371
1571.13,-0.03,1571.5860,-3.920,-3.54459
1571.14,-0.03,1571.5981,-3.800,-3.54429
1571.15,-0.03,1571.6054,-3.860,-3.54338
1571.16,-0.03,1571.6151,-4.140,-3.54432
1571.17,-0.03,1571.6274,-3.870,-3.54433
1571.18,-0.03,1571.6347,-3.830,-3.54323
1571.19,-0.03,1571.6445,-4.190,-3.54413
1571.2,-0.03,1571.6564,-3.800,-3.54398
1571.21,-0.03,1571.6670,-3.890,-3.54297
1571.22,-0.03,1571.6736,-3.900,-3.54399
1571.23,-0.03,1571.6860,-3.830,-3.54392
1571.24,-0.03,1571.6971,-3.830,-3.54287
1571.25,-0.03,1571.7040,-4.140,-3.54379
1571.26,-0.03,1571.7163,-3.880,-3.54358
1571.27,-0.03,1571.7269,-3.850,-3.54256
1571.28,-0.03,1571.7339,-4.140,-3.54365
1571.29,-0.03,1571.7459,-3.850,-3.54328
1571.3,-0.03,1571.7567,-3.870,-3.5444
1571.31,-0.03,1571.7635,-4.150,-3.54536
1571.32,-0.03,1571.7755,-3.850,-3.54518
1571.33,-0.03,1571.7863,-3.850,-3.54415
1571.34,-0.03,1571.7931,-4.140,-3.54504
1571.35,-0.03,1571.8055,-3.850,-3.54493
1571.36,-0.03,1571.8167,-3.880,-3.54372
1571.37,-0.03,1571.8238,-4.140,-3.54478
1571.38,-0.03,1571.8363,-3.800,-3.54471
1571.39,-0.03,1571.8475,-3.910,-3.54359
1571.4,-0.03,1571.8547,-3.910,-3.54443
1571.41,-0.03,1571.8669,-3.820,-3.54425
1571.42,-0.03,1571.8777,-3.920,-3.54328
1571.43,-0.03,1571.8892,-3.850,-3.54313
1571.44,-0.03,1571.8967,-3.890,-3.54408
1571.45,-0.03,1571.9075,-3.890,-3.54314
1571.46,-0.03,1571.9191,-3.850,-3.54291
1571.47,-0.03,1571.9266,-3.790,-3.54363
1571.48,-0.03,1571.9377,-3.890,-3.54262
1571.49,-0.03,1571.9497,-3.900,-3.54261
1571.5,-0.03,1571.9574,-3.890,-3.54332
1571.51,-0.03,1571.9685,-3.930,-3.54226
1571.52,-0.03,1571.9803,-3.860,-3.54212
1571.53,-0.03,1571.9880,-3.820,-3.54294
1571.54,-0.03,1571.9990,-3.910,-3.54201
1571.55,-0.03,1572.0106,-3.910,-3.5419
1571.56,-0.03,1572.0183,-3.840,-3.54262
1571.57,-0.03,1572.0294,-3.940,-3.54174
1571.58,-0.03,1572.0413,-3.840,-3.5416
1571.59,-0.03,1572.0489,-3.800,-3.54252
1571.6,-0.03,1572.0598,-3.930,-3.54129
1571.61,-0.03,1572.0723,-3.800,-3.5413
1571.62,-0.03,1572.0802,-3.880,-3.54198
1571.63,-0.03,1572.0915,-4.100,-3.54105
1571.64,-0.03,1572.1037,-3.820,-3.54094
1571.65,-0.03,1572.1139,-3.850,-3.5418
1571.66,-0.03,1572.1219,-3.920,-3.54062
1571.67,-0.03,1572.1335,-3.820,-3.54266
1571.68,-0.03,1572.1433,-3.870,-3.54363
1571.69,-0.03,1572.1512,-4.120,-3.54246
1571.7,-0.03,1572.1630,-3.820,-3.54227
1571.71,-0.03,1572.1730,-3.840,-3.54318
1571.72,-0.03,1572.1810,-4.190,-3.54218
1571.73,-0.03,1572.1921,-3.780,-3.54198
1571.74,-0.03,1572.2019,-3.840,-3.54289
1571.75,-0.03,1572.2100,-4.100,-3.54185
1571.76,-0.03,1572.2216,-3.780,-3.54158
1571.77,-0.03,1572.2316,-3.860,-3.54238
1571.78,-0.03,1572.2396,-4.150,-3.54149
1571.79,-0.03,1572.2510,-3.850,-3.54133
1571.8,-0.03,1572.2607,-3.880,-3.54242
1571.81,-0.03,1572.2688,-3.910,-3.54124
1571.82,-0.03,1572.2801,-3.830,-3.54111
1571.83,-0.03,1572.2903,-3.830,-3.54199
1571.84,-0.03,1572.2985,-3.930,-3.54092
1571.85,-0.03,1572.3095,-3.880,-3.54079
1571.86,-0.03,1572.3193,-3.780,-3.5417
1571.87,-0.03,1572.3316,-3.950,-3.54159
1571.88,-0.03,1572.3391,-3.880,-3.54072
1571.89,-0.03,1572.3493,-3.840,-3.54149
1571.9,-0.03,1572.3619,-3.920,-3.54142
1571.91,-0.03,1572.3695,-3.850,-3.54024
1571.92,-0.03,1572.3793,-3.880,-3.54134
1571.93,-0.03,1572.3917,-3.870,-3.54089
1571.94,-0.03,1572.3993,-3.830,-3.54003
1571.95,-0.03,1572.4094,-3.830,-3.54083
1571.96,-0.03,1572.4221,-3.870,-3.54077
1571.97,-0.03,1572.4297,-3.780,-3.53974
1571.98,-0.03,1572.4398,-3.860,-3.54069
1571.99,-0.03,1572.4519,-3.860,-3.54051
1572,-0.03,1572.4597,-3.850,-3.53949
1572.01,-0.03,1572.4697,-3.810,-3.54037
1572.02,-0.03,1572.4826,-3.900,-3.54028
1572.03,-0.03,1572.4904,-3.770,-3.5393
1572.04,-0.03,1572.5006,-3.820,-3.54193
1572.05,-0.03,1572.5131,-3.850,-3.54203
1572.06,-0.03,1572.5207,-3.800,-3.54104
1572.07,-0.03,1572.5307,-3.910,-3.54199
1572.08,-0.03,1572.5430,-3.890,-3.54188
1572.09,-0.03,1572.5535,-3.870,-3.5408
1572.1,-0.03,1572.5608,-3.870,-3.54186
1572.11,-0.03,1572.5726,-3.850,-3.54174
1572.12,-0.03,1572.5833,-3.790,-3.54067
1572.13,-0.03,1572.5903,-3.860,-3.54163
1572.14,-0.03,1572.6020,-3.900,-3.54164
1572.15,-0.03,1572.6126,-3.870,-3.54063
1572.16,-0.03,1572.6194,-3.860,-3.5415
1572.17,-0.03,1572.6316,-3.900,-3.5413
1572.18,-0.03,1572.6420,-3.840,-3.54034
1572.19,-0.03,1572.6485,-3.860,-3.54121
1572.2,-0.03,1572.6600,-3.920,-3.54115
1572.21,-0.03,1572.6702,-3.840,-3.53996
1572.22,-0.03,1572.6769,-3.820,-3.54103
1572.23,-0.03,1572.6888,-3.940,-3.54078
1572.24,-0.03,1572.6988,-3.820,-3.53992
1572.25,-0.03,1572.7051,-3.840,-3.54072
1572.26,-0.03,1572.7165,-3.940,-3.54064
1572.27,-0.03,1572.7267,-3.860,-3.5398
1572.28,-0.03,1572.7334,-3.840,-3.54049
1572.29,-0.03,1572.7455,-3.880,-3.54039
1572.3,-0.03,1572.7566,-3.850,-3.5394
1572.31,-0.03,1572.7682,-3.840,-3.53939
1572.32,-0.03,1572.7756,-3.930,-3.54041
1572.33,-0.03,1572.7863,-3.790,-3.53932
1572.34,-0.03,1572.7980,-3.830,-3.53908
1572.35,-0.03,1572.8055,-3.940,-3.54013
1572.36,-0.03,1572.8161,-3.800,-3.5391
1572.37,-0.03,1572.8274,-3.860,-3.53897
1572.38,-0.03,1572.8348,-3.900,-3.53998
1572.39,-0.03,1572.8452,-3.830,-3.53887
1572.4,-0.03,1572.8567,-3.880,-3.5387
1572.41,-0.03,1572.8642,-3.890,-3.54186
1572.42,-0.03,1572.8750,-3.830,-3.54067
1572.43,-0.03,1572.8868,-3.830,-3.54063
1572.44,-0.03,1572.8943,-3.930,-3.54168
1572.45,-0.03,1572.9054,-3.830,-3.54037
1572.46,-0.03,1572.9173,-3.850,-3.54042
1572.47,-0.03,1572.9249,-4.160,-3.54143
1572.48,-0.03,1572.9357,-3.880,-3.54042
1572.49,-0.03,1572.9476,-3.840,-3.54029
1572.5,-0.03,1572.9577,-3.900,-3.54121
1572.51,-0.03,1572.9659,-3.850,-3.54005
1572.52,-0.03,1572.9773,-3.780,-3.54019
1572.53,-0.03,1572.9874,-3.930,-3.54116
1572.54,-0.03,1572.9957,-3.850,-3.53996
1572.55,-0.03,1573.0074,-3.910,-3.54008
1572.56,-0.03,1573.0177,-3.870,-3.54089
1572.57,-0.03,1573.0261,-3.870,-3.53976
1572.58,-0.03,1573.0380,-3.790,-3.53967
1572.59,-0.03,1573.0483,-3.880,-3.54067
1572.6,-0.03,1573.0566,-3.790,-3.53948
1572.61,-0.03,1573.0681,-3.890,-3.53944
1572.62,-0.03,1573.0783,-3.850,-3.5404
1572.63,-0.03,1573.0867,-3.820,-3.53949
1572.64,-0.03,1573.0985,-3.820,-3.53935
1572.65,-0.03,1573.1086,-3.870,-3.54032
1572.66,-0.03,1573.1167,-3.820,-3.53928
1572.67,-0.03,1573.1284,-3.820,-3.53925
1572.68,-0.03,1573.1388,-3.840,-3.54004
1572.69,-0.03,1573.1470,-3.840,-3.53909
1572.7,-0.03,1573.1590,-3.880,-3.53908
1572.71,-0.03,1573.1692,-3.890,-3.53994
1572.72,-0.03,1573.1811,-3.840,-3.5399
1572.73,-0.03,1573.1885,-3.800,-3.53895
1572.74,-0.03,1573.1984,-3.890,-3.53971
1572.75,-0.03,1573.2102,-3.830,-3.53975
1572.76,-0.03,1573.2178,-3.850,-3.53887
1572.77,-0.03,1573.2273,-3.880,-3.53976
1572.78,-0.03,1573.2392,-3.820,-3.54164
1572.79,-0.03,1573.2464,-3.890,-3.54087
1572.8,-0.03,1573.2560,-3.950,-3.54172
1572.81,-0.03,1573.2681,-3.830,-3.54162
1572.82,-0.03,1573.2756,-3.860,-3.54074
1572.83,-0.03,1573.2858,-3.850,-3.54162
1572.84,-0.03,1573.2979,-3.840,-3.54168
1572.85,-0.03,1573.3054,-3.860,-3.54071
1572.86,-0.03,1573.3154,-3.920,-3.54168
1572.87,-0.03,1573.3273,-3.840,-3.54166
1572.88,-0.03,1573.3349,-3.860,-3.5407
1572.89,-0.03,1573.3448,-3.880,-3.54154
1572.9,-0.03,1573.3569,-3.810,-3.54133
1572.91,-0.03,1573.3644,-3.850,-3.54047
1572.92,-0.03,1573.3742,-3.940,-3.54134
1572.93,-0.03,1573.3864,-3.840,-3.54128
1572.94,-0.03,1573.3976,-3.850,-3.54034
1572.95,-0.03,1573.4045,-3.930,-3.54122
1572.96,-0.03,1573.4170,-3.780,-3.5412
1572.97,-0.03,1573.4279,-3.860,-3.54015
1572.98,-0.03,1573.4348,-3.920,-3.54125
1572.99,-0.03,1573.4472,-3.840,-3.54103
1573,-0.03,1573.4579,-3.900,-3.53999
1573.01,-0.03,1573.4648,-3.900,-3.54115
1573.02,-0.03,1573.4769,-3.760,-3.5412
1573.03,-0.03,1573.4876,-3.860,-3.54007
1573.04,-0.03,1573.4942,-3.920,-3.54098
1573.05,-0.03,1573.5059,-3.840,-3.54087
1573.06,-0.03,1573.5165,-3.850,-3.53981
1573.07,-0.03,1573.5232,-3.940,-3.54088
1573.08,-0.03,1573.5355,-3.840,-3.5408
1573.09,-0.03,1573.5463,-3.870,-3.53999
1573.1,-0.03,1573.5532,-3.910,-3.54082
1573.11,-0.03,1573.5654,-3.880,-3.54084
1573.12,-0.03,1573.5759,-3.820,-3.53983
1573.13,-0.03,1573.5827,-4.130,-3.54073
1573.14,-0.03,1573.5946,-3.820,-3.54088
1573.15,-0.03,1573.6055,-3.870,-3.54168
1573.16,-0.03,1573.6172,-3.880,-3.54174
1573.17,-0.03,1573.6246,-3.810,-3.5428
1573.18,-0.03,1573.6350,-3.870,-3.54169
1573.19,-0.03,1573.6468,-3.860,-3.54166
1573.2,-0.03,1573.6542,-3.840,-3.54278
1573.21,-0.03,1573.6651,-3.820,-3.54163
1573.22,-0.03,1573.6772,-3.880,-3.54161
1573.23,-0.03,1573.6848,-3.790,-3.54262
1573.24,-0.03,1573.6957,-3.870,-3.54181
1573.25,-0.03,1573.7071,-3.860,-3.54158
1573.26,-0.03,1573.7144,-3.860,-3.54258
1573.27,-0.03,1573.7248,-3.820,-3.54154
1573.28,-0.03,1573.7363,-3.860,-3.54143
1573.29,-0.03,1573.7434,-3.870,-3.54253
1573.3,-0.03,1573.7538,-3.860,-3.54157
1573.31,-0.03,1573.7653,-3.870,-3.54151
1573.32,-0.03,1573.7725,-3.820,-3.54215
1573.33,-0.03,1573.7830,-3.890,-3.54116
1573.34,-0.03,1573.7944,-3.880,-3.54134
1573.35,-0.03,1573.8019,-3.820,-3.54226
1573.36,-0.03,1573.8127,-3.830,-3.54129
1573.37,-0.03,1573.8243,-3.900,-3.54108
1573.38,-0.03,1573.8343,-3.860,-3.54227
1573.39,-0.03,1573.8423,-3.880,-3.54119
1573.4,-0.03,1573.8539,-3.920,-3.54114
1573.41,-0.03,1573.8639,-3.840,-3.54219
1573.42,-0.03,1573.8723,-3.860,-3.5411
1573.43,-0.03,1573.8841,-3.950,-3.54107
1573.44,-0.03,1573.8941,-3.860,-3.54193
1573.45,-0.03,1573.9021,-3.860,-3.54103
1573.46,-0.03,1573.9138,-3.880,-3.5413
1573.47,-0.03,1573.9238,-3.840,-3.54203
1573.48,-0.03,1573.9322,-3.810,-3.54106
1573.49,-0.03,1573.9439,-3.900,-3.54123
1573.5,-0.03,1573.9540,-3.810,-3.54205
1573.51,-0.03,1573.9624,-3.830,-3.54087
1573.52,-0.03,1573.9742,-3.890,-3.54305
1573.53,-0.03,1573.9845,-3.830,-3.54395
1573.54,-0.03,1573.9926,-3.880,-3.54304
1573.55,-0.03,1574.0043,-3.840,-3.54306
1573.56,-0.03,1574.0145,-3.790,-3.54385
1573.57,-0.03,1574.0223,-3.790,-3.54293
1573.58,-0.03,1574.0337,-3.890,-3.5429
1573.59,-0.03,1574.0439,-3.790,-3.54382
1573.6,-0.03,1574.0562,-3.870,-3.54375
1573.61,-0.03,1574.0638,-3.840,-3.543
1573.62,-0.03,1574.0740,-3.810,-3.54398
1573.63,-0.03,1574.0861,-3.880,-3.54392
1573.64,-0.03,1574.0936,-3.910,-3.54309
1573.65,-0.03,1574.1034,-3.810,-3.54404
1573.66,-0.03,1574.1157,-3.870,-3.54403
1573.67,-0.03,1574.1231,-3.920,-3.54313
1573.68,-0.03,1574.1328,-3.810,-3.54409
1573.69,-0.03,1574.1449,-3.860,-3.54409
1573.7,-0.03,1574.1522,-3.950,-3.54291
1573.71,-0.03,1574.1618,-3.790,-3.54389
1573.72,-0.03,1574.1737,-3.880,-3.54399
1573.73,-0.03,1574.1810,-3.890,-3.54295
1573.74,-0.03,1574.1910,-3.910,-3.54396
1573.75,-0.03,1574.2033,-3.840,-3.54384
1573.76,-0.03,1574.2109,-3.950,-3.5431
1573.77,-0.03,1574.2209,-3.870,-3.54373
1573.78,-0.03,1574.2333,-3.870,-3.54346
1573.79,-0.03,1574.2408,-3.920,-3.54277
1573.8,-0.03,1574.2508,-3.860,-3.54377
1573.81,-0.03,1574.2631,-3.850,-3.54371
1573.82,-0.03,1574.2741,-3.830,-3.54261
1573.83,-0.03,1574.2810,-3.790,-3.54383
1573.84,-0.03,1574.2930,-3.870,-3.54368
1573.85,-0.03,1574.3036,-3.860,-3.5428
1573.86,-0.03,1574.3105,-3.840,-3.54371
1573.87,-0.03,1574.3231,-3.870,-3.54365
1573.88,-0.03,1574.3339,-3.930,-3.54265
1573.89,-0.03,1574.3409,-3.840,-3.54608
1573.9,-0.03,1574.3534,-3.880,-3.54594
1573.91,-0.03,1574.3643,-3.870,-3.54498
1573.92,-0.03,1574.3710,-3.860,-3.54582
1573.93,-0.03,1574.3831,-3.900,-3.54587
1573.94,-0.03,1574.3936,-3.880,-3.54495
1573.95,-0.03,1574.4005,-3.830,-3.54591
1573.96,-0.03,1574.4125,-3.890,-3.54592
1573.97,-0.03,1574.4229,-3.860,-3.54499
1573.98,-0.03,1574.4297,-3.760,-3.54587
1573.99,-0.03,1574.4413,-3.860,-3.54583
1574,-0.03,1574.4519,-3.890,-3.54475
1574.01,-0.03,1574.4587,-3.850,-3.54585
1574.02,-0.03,1574.4710,-3.860,-3.5457
1574.03,-0.03,1574.4816,-3.840,-3.54475
1574.04,-0.03,1574.4932,-3.800,-3.5447
1574.05,-0.03,1574.5007,-3.880,-3.54575
1574.06,-0.03,1574.5114,-3.920,-3.54484
1574.07,-0.03,1574.5228,-3.830,-3.54471
1574.08,-0.03,1574.5302,-3.900,-3.54584
1574.09,-0.03,1574.5404,-3.930,-3.54484
1574.1,-0.03,1574.5519,-3.780,-3.54461
1574.11,-0.03,1574.5591,-3.850,-3.54576
1574.12,-0.03,1574.5696,-3.940,-3.54479
1574.13,-0.03,1574.5810,-3.860,-3.5447
1574.14,-0.03,1574.5883,-3.850,-3.54557
1574.15,-0.02,1574.5988,-3.860,-3.54459
1574.16,-0.03,1574.6103,-3.810,-3.54468
1574.17,-0.03,1574.6177,-3.820,-3.54555
1574.18,-0.03,1574.6282,-3.940,-3.54459
1574.19,-0.03,1574.6399,-3.810,-3.54474
1574.2,-0.03,1574.6470,-3.840,-3.54559
1574.21,-0.03,1574.6576,-4.130,-3.54451
1574.22,-0.03,1574.6692,-3.840,-3.54446
1574.23,-0.03,1574.6767,-3.840,-3.54545
1574.24,-0.03,1574.6870,-4.150,-3.54448
1574.25,-0.03,1574.6983,-3.820,-3.54458
1574.26,-0.03,1574.7083,-3.850,-3.54758
1574.27,-0.03,1574.7166,-4.150,-3.54661
1574.28,-0.03,1574.7279,-3.840,-3.54647
1574.29,-0.03,1574.7380,-3.850,-3.54756
1574.3,-0.03,1574.7460,-3.950,-3.54658
1574.31,-0.03,1574.7572,-3.800,-3.54654
1574.32,-0.03,1574.7673,-3.870,-3.54747
1574.33,-0.03,1574.7753,-3.930,-3.54651
1574.34,-0.02,1574.7866,-3.840,-3.54641
1574.35,-0.03,1574.7965,-3.840,-3.54747
1574.36,-0.03,1574.8044,-3.890,-3.54651
1574.37,-0.03,1574.8155,-3.850,-3.54641
1574.38,-0.03,1574.8251,-3.860,-3.54752
1574.39,-0.03,1574.8331,-3.920,-3.54633
1574.4,-0.03,1574.8447,-3.820,-3.5463
1574.41,-0.03,1574.8548,-3.840,-3.54751
1574.42,-0.03,1574.8632,-3.870,-3.54643
1574.43,-0.03,1574.8749,-3.870,-3.54654
1574.44,-0.03,1574.8851,-3.840,-3.54756
1574.45,-0.03,1574.8937,-3.930,-3.54657
1574.46,-0.03,1574.9054,-3.820,-3.54648
1574.47,-0.03,1574.9156,-3.820,-3.54742
1574.48,-0.03,1574.9284,-3.860,-3.54743
1574.49,-0.03,1574.9359,-3.840,-3.5464
1574.5,-0.03,1574.9461,-3.860,-3.54744
1574.51,-0.03,1574.9582,-3.910,-3.54717
1574.52,-0.03,1574.9656,-3.780,-3.54622
1574.53,-0.03,1574.9759,-3.860,-3.54708
1574.54,-0.03,1574.9882,-3.890,-3.54723
1574.55,-0.03,1574.9957,-3.790,-3.54638
1574.56,-0.03,1575.0058,-3.870,-3.54733
1574.57,-0.03,1575.0184,-3.860,-3.54719
1574.58,-0.03,1575.0258,-3.820,-3.54615
1574.59,-0.03,1575.0358,-3.870,-3.54728
1574.6,-0.03,1575.0480,-3.910,-3.54717
1574.61,-0.03,1575.0555,-3.890,-3.54615
1574.62,-0.03,1575.0655,-3.790,-3.54721
1574.63,-0.03,1575.0775,-3.960,-3.54918
1574.64,-0.03,1575.0846,-3.870,-3.54821
1574.65,-0.03,1575.0943,-3.840,-3.54928
1574.66,-0.03,1575.1065,-3.940,-3.54919
1574.67,-0.03,1575.1141,-3.850,-3.54818
1574.68,-0.03,1575.1242,-3.880,-3.54903
1574.69,-0.03,1575.1368,-3.930,-3.54911
1574.7,-0.03,1575.1477,-3.860,-3.54802
1574.71,-0.03,1575.1547,-3.810,-3.54889
1574.72,-0.03,1575.1670,-3.950,-3.54896
1574.73,-0.03,1575.1776,-3.860,-3.54774
1574.74,-0.03,1575.1847,-3.840,-3.54882
1574.75,-0.03,1575.1972,-3.920,-3.54872
1574.76,-0.03,1575.2079,-3.810,-3.5478
1574.77,-0.03,1575.2149,-3.840,-3.5486
1574.78,-0.03,1575.2272,-3.940,-3.54875
1574.79,-0.03,1575.2382,-3.780,-3.54773
1574.8,-0.03,1575.2453,-3.890,-3.54861
1574.81,-0.03,1575.2577,-3.910,-3.54861
1574.82,-0.03,1575.2689,-3.800,-3.54744
1574.83,-0.03,1575.2759,-3.820,-3.54842
1574.84,-0.03,1575.2881,-3.900,-3.54847
1574.85,-0.03,1575.2991,-3.850,-3.5474
1574.86,-0.03,1575.3060,-3.820,-3.54833
1574.87,-0.03,1575.3180,-3.880,-3.54829
1574.88,-0.03,1575.3285,-3.830,-3.54742
1574.89,-0.03,1575.3401,-3.870,-3.54737
1574.9,-0.03,1575.3473,-3.930,-3.54822
1574.91,-0.03,1575.3577,-3.830,-3.54736
1574.92,-0.03,1575.3692,-3.860,-3.54737
1574.93,-0.03,1575.3766,-3.920,-3.54804
1574.94,-0.03,1575.3871,-3.850,-3.54706
1574.95,-0.03,1575.3986,-3.910,-3.54692
1574.96,-0.03,1575.4059,-3.950,-3.54795
1574.97,-0.03,1575.4161,-3.810,-3.54696
1574.98,-0.03,1575.4274,-3.860,-3.54691
1574.99,-0.03,1575.4347,-4.150,-3.54779
1575,-0.03,1575.4452,-3.840,-3.54873
